big_guy.thisRepN,big_guy.thisTrialN,big_guy.thisN,big_guy.thisIndex,outer_loop1.thisRepN,outer_loop1.thisTrialN,outer_loop1.thisN,outer_loop1.thisIndex,MC_self_loop1.thisRepN,MC_self_loop1.thisTrialN,MC_self_loop1.thisN,MC_self_loop1.thisIndex,MM_self_loop1.thisRepN,MM_self_loop1.thisTrialN,MM_self_loop1.thisN,MM_self_loop1.thisIndex,MM_other_loop1.thisRepN,MM_other_loop1.thisTrialN,MM_other_loop1.thisN,MM_other_loop1.thisIndex,MC_other_loop1.thisRepN,MC_other_loop1.thisTrialN,MC_other_loop1.thisN,MC_other_loop1.thisIndex,outer_loop2.thisRepN,outer_loop2.thisTrialN,outer_loop2.thisN,outer_loop2.thisIndex,MM_self_loop2.thisRepN,MM_self_loop2.thisTrialN,MM_self_loop2.thisN,MM_self_loop2.thisIndex,MC_self_loop2.thisRepN,MC_self_loop2.thisTrialN,MC_self_loop2.thisN,MC_self_loop2.thisIndex,MC_other_loop2.thisRepN,MC_other_loop2.thisTrialN,MC_other_loop2.thisN,MC_other_loop2.thisIndex,MM_other_loop2.thisRepN,MM_other_loop2.thisTrialN,MM_other_loop2.thisN,MM_other_loop2.thisIndex,begin_text.started,begin_text.stopped,begin_exp.keys,begin_exp.rt,begin_exp.started,begin_exp.stopped,Rest_title.started,Rest_title.stopped,rest_body.started,rest_body.stopped,rest_nxt.started,rest_nxt.stopped,advance_0.keys,advance_0.rt,advance_0.started,advance_0.stopped,begin_scan_txt.started,begin_scan_txt.stopped,still_txt.started,still_txt.stopped,begin_scan_btn.keys,begin_scan_btn.rt,begin_scan_btn.started,begin_scan_btn.stopped,wait_scan_txt.started,wait_scan_txt.stopped,still_txt2.started,still_txt2.stopped,trial_crosshair_rest.started,trial_crosshair_rest.stopped,break_txt.started,break_txt.stopped,break_btn.keys,break_btn.rt,break_btn.started,break_btn.stopped,MM_self_title.started,MM_self_title.stopped,MM_self_body.started,MM_self_body.stopped,MM_self_nxt.started,MM_self_nxt.stopped,advance_2.keys,advance_2.rt,advance_2.started,advance_2.stopped,self_btn.keys,self_btn.rt,self_btn.started,self_btn.stopped,trial_crosshair.started,trial_crosshair.stopped,MC_self_title.started,MC_self_title.stopped,MC_self_body.started,MC_self_body.stopped,MC_self_nxt.started,MC_self_nxt.stopped,advance_1.keys,advance_1.rt,advance_1.started,advance_1.stopped,MC_other_title.started,MC_other_title.stopped,MC_other_body.started,MC_other_body.stopped,MC_other_nxt.started,MC_other_nxt.stopped,advance4.keys,advance4.rt,advance4.started,advance4.stopped,other_j_btn1.keys,other_j_btn1.rt,other_j_btn1.started,other_j_btn1.stopped,MM_other_title.started,MM_other_title.stopped,MM_other_body.started,MM_other_body.stopped,MM_other_nxt.started,MM_other_nxt.stopped,advance3.keys,advance3.rt,advance3.started,advance3.stopped,other_n_btn.keys,other_n_btn.rt,other_n_btn.started,other_n_btn.stopped,participant,session,date,expName,psychopyVersion,frameRate,
,,,,,,,,,,,,,,,,,,,,,,,,,,,,,,,,,,,,,,,,,,,,8.97584583889693,None,1,4.300517180003226,8.97584583889693,None,,,,,,,,,,,,,,,,,,,,,,,,,,,,,,,,,,,,,,,,,,,,,,,,,,,,,,,,,,,,,,,,,,,,,,,,,,,,,,,,,,,,,000,001,2021_May_07_1443,ATM_main_4-9-21,2021.1.3,59.90450354412526,
,,,,,,,,,,,,,,,,,,,,,,,,,,,,,,,,,,,,,,,,,,,,,,,,,,13.313045303337276,None,13.313045303337276,None,13.313045303337276,None,1,6.998089360073209,13.313045303337276,None,,,,,,,,,,,,,,,,,,,,,,,,,,,,,,,,,,,,,,,,,,,,,,,,,,,,,,,,,,,,,,,,,,,,,,,,,,,000,001,2021_May_07_1443,ATM_main_4-9-21,2021.1.3,59.90450354412526,
,,,,,,,,,,,,,,,,,,,,,,,,,,,,,,,,,,,,,,,,,,,,,,,,,,,,,,,,,,,,20.331143710762262,None,20.331143710762262,None,['equal'],[23.951578812673688],20.331143710762262,None,,,,,,,,,,,,,,,,,,,,,,,,,,,,,,,,,,,,,,,,,,,,,,,,,,,,,,,,,,,,,,,,,,,000,001,2021_May_07_1443,ATM_main_4-9-21,2021.1.3,59.90450354412526,
,,,,,,,,,,,,,,,,,,,,,,,,,,,,,,,,,,,,,,,,,,,,,,,,,,,,,,,,,,,,50.29699572455138,None,50.29699572455138,None,['equal'],[1.4797751875594258],50.29699572455138,None,48.79258122108877,None,48.79258122108877,None,,,,,,,,,,,,,,,,,,,,,,,,,,,,,,,,,,,,,,,,,,,,,,,,,,,,,,,,,,,,,,,000,001,2021_May_07_1443,ATM_main_4-9-21,2021.1.3,59.90450354412526,
,,,,,,,,,,,,,,,,,,,,,,,,,,,,,,,,,,,,,,,,,,,,,,,,,,,,,,,,,,,,,,,,,,,,,,,,51.796494412235916,None,359.30427055060863,None,1,4.035771234892309,359.30427055060863,None,,,,,,,,,,,,,,,,,,,,,,,,,,,,,,,,,,,,,,,,,,,,,,,,,,,,,,,000,001,2021_May_07_1443,ATM_main_4-9-21,2021.1.3,59.90450354412526,
0,0,0,0,0,0,0,0,,,,,0,0,0,0,,,,,,,,,,,,,,,,,,,,,,,,,,,,,,,,,,,,,,,,,,,,,396.7756261760369,None,396.7756261760369,None,['equal'],[1.4801925802603364],396.7756261760369,None,395.27538159675896,None,395.27538159675896,None,,,705.7879429105669,None,1,5.033744088374078,705.7879429105669,None,363.37195974588394,None,363.37195974588394,None,363.37195974588394,None,1,12.08915080782026,363.37195974588394,None,"['1', '1', '1', '1', '1', '1']","[94.60105175245553, 115.60043487511575, 125.54629926476628, 154.01747503411025, 221.8277176246047, 269.04347705096006]",398.27521214075387,None,398.27521214075387,None,,,,,,,,,,,,,,,,,,,,,,,,,,,,,,,,,,,,,,,000,001,2021_May_07_1443,ATM_main_4-9-21,2021.1.3,59.90450354412526,
0,0,0,0,0,0,0,0,,,,,,,,,,,,,,,,,,,,,,,,,,,,,,,,,,,,,,,,,,,,,,,,,,,,,,,,,,,,,,,,,,,,,,,,,,,,,,,,,,,,,,,,,,,,,,,,,,,,,,,,,,,,,,,,,,,,,,,,,,,,,,,000,001,2021_May_07_1443,ATM_main_4-9-21,2021.1.3,59.90450354412526,
0,0,0,0,1,0,1,0,0,0,0,0,,,,,,,,,,,,,,,,,,,,,,,,,,,,,,,,,,,,,,,,,,,,,,,,,743.000058952719,None,743.000058952719,None,['equal'],[1.4850077824667096],743.000058952719,None,741.504844751209,None,741.504844751209,None,,,1052.0171298254281,None,1,9.7950045960024,1052.0171298254281,None,,,,,,,,,,,"['1', '1', '1', '1', '1', '1', '1', '1', '1', '1']","[24.513323813676834, 47.412703674286604, 70.54602696280926, 96.80073996353894, 124.51151913870126, 152.11190883535892, 182.49598792754114, 214.3116015959531, 252.6116793807596, 281.44914586283267]",744.5045027481392,None,744.5045027481392,None,710.85064993985,None,710.85064993985,None,710.85064993985,None,1,9.249353521503508,710.85064993985,None,,,,,,,,,,,,,,,,,,,,,,,,,,,,,000,001,2021_May_07_1443,ATM_main_4-9-21,2021.1.3,59.90450354412526,
0,0,0,0,1,0,1,0,,,,,,,,,,,,,,,,,,,,,,,,,,,,,,,,,,,,,,,,,,,,,,,,,,,,,,,,,,,,,,,,,,,,,,,,,,,,,,,,,,,,,,,,,,,,,,,,,,,,,,,,,,,,,,,,,,,,,,,,,,,,,,,000,001,2021_May_07_1443,ATM_main_4-9-21,2021.1.3,59.90450354412526,
0,0,0,0,2,0,2,0,,,,,,,,,,,,,0,0,0,0,,,,,,,,,,,,,,,,,,,,,,,,,,,,,,,,,,,,,1088.6281240982935,None,1088.6281240982935,None,['equal'],[1.4856499023735523],1088.6281240982935,None,1087.1327821956947,None,1087.1327821956947,None,,,1397.640218699351,None,1,1.9403031207621098,1397.640218699351,None,,,,,,,,,,,,,,,,,,,,,,,,,,,1061.8326261779293,None,1061.8326261779293,None,1061.8326261779293,None,1,6.698290755972266,1061.8326261779293,None,"['1', '1', '1', '1', '1', '1', '1', '1', '1', '1', '1', '1']","[24.080497006885707, 47.62782465945929, 71.26280524488539, 93.87981138937175, 116.82779271155596, 141.44483434502035, 166.61112048197538, 188.427391840145, 210.3272633254528, 231.9269976289943, 255.94390496890992, 288.2425097748637]",1090.8002424286678,None,,,,,,,,,,,,,,,000,001,2021_May_07_1443,ATM_main_4-9-21,2021.1.3,59.90450354412526,
0,0,0,0,2,0,2,0,,,,,,,,,,,,,,,,,,,,,,,,,,,,,,,,,,,,,,,,,,,,,,,,,,,,,,,,,,,,,,,,,,,,,,,,,,,,,,,,,,,,,,,,,,,,,,,,,,,,,,,,,,,,,,,,,,,,,,,,,,,,,,,000,001,2021_May_07_1443,ATM_main_4-9-21,2021.1.3,59.90450354412526,
0,0,0,0,3,0,3,0,,,,,,,,,0,0,0,0,,,,,,,,,,,,,,,,,,,,,,,,,,,,,,,,,,,,,,,,,1432.8406191859394,None,1432.8406191859394,None,['equal'],[1.4844429595395923],1432.8406191859394,None,1431.3444000277668,None,1431.3444000277668,None,,,1741.853188622743,None,1,2.533365486189723,1741.853188622743,None,,,,,,,,,,,,,,,,,,,,,,,,,,,,,,,,,,,,,"['1', '1', '1', '1', '1', '1', '1', '1', '1', '1', '1', '1', '1', '1']","[26.14836131595075, 44.63051790744066, 71.59715284779668, 92.68485292885453, 110.84711780957878, 143.24550173711032, 153.32925025839359, 203.3119901260361, 234.51154391560704, 251.07827637251467, 269.3606837214902, 276.44325075577945, 286.62741119693965, 296.6776187196374]",1434.5775745715946,None,1399.6083501866087,None,1399.6083501866087,None,1399.6083501866087,None,['1'],[9.484644548036158],1399.6083501866087,None,,,,,000,001,2021_May_07_1443,ATM_main_4-9-21,2021.1.3,59.90450354412526,
0,0,0,0,3,0,3,0,,,,,,,,,,,,,,,,,,,,,,,,,,,,,,,,,,,,,,,,,,,,,,,,,,,,,,,,,,,,,,,,,,,,,,,,,,,,,,,,,,,,,,,,,,,,,,,,,,,,,,,,,,,,,,,,,,,,,,,,,,,,,,,000,001,2021_May_07_1443,ATM_main_4-9-21,2021.1.3,59.90450354412526,
0,0,0,0,,,,,,,,,,,,,,,,,,,,,,,,,,,,,,,,,,,,,,,,,,,,,,,,,,,,,,,,,,,,,,,,,,,,,,,,,,,,,,,,,,,,,,,,,,,,,,,,,,,,,,,,,,,,,,,,,,,,,,,,,,,,,,,,,,,000,001,2021_May_07_1443,ATM_main_4-9-21,2021.1.3,59.90450354412526,
1,0,1,0,,,,,,,,,,,,,,,,,,,,,0,0,0,0,,,,,,,,,,,,,0,0,0,0,,,,,,,,,,,,,,,,,1775.8848753748462,None,1775.8848753748462,None,['equal'],[1.4906841171905398],1775.8848753748462,None,1774.3852115999907,None,1774.3852115999907,None,,,2084.89699806273,None,1,3.086762262508273,2084.89699806273,None,,,,,,,,,,,,,,,,,,,,,,,,,,,,,,,,,,,,,,,,,1744.4019469926134,None,1744.4019469926134,None,1744.4019469926134,None,['1'],[8.351361939683557],1744.4019469926134,None,1,303.17625105101615,1777.6063296636567,None,000,001,2021_May_07_1443,ATM_main_4-9-21,2021.1.3,59.90450354412526,
1,0,1,0,,,,,,,,,,,,,,,,,,,,,0,0,0,0,,,,,,,,,,,,,,,,,,,,,,,,,,,,,,,,,,,,,,,,,,,,,,,,,,,,,,,,,,,,,,,,,,,,,,,,,,,,,,,,,,,,,,,,,,,,,,,,,,,,,,,,,,,000,001,2021_May_07_1443,ATM_main_4-9-21,2021.1.3,59.90450354412526,
1,0,1,0,,,,,,,,,,,,,,,,,,,,,1,0,1,0,,,,,,,,,0,0,0,0,,,,,,,,,,,,,,,,,,,,,2115.71447967086,None,2115.71447967086,None,['equal'],[1.4899630825966597],2115.71447967086,None,2114.2141251014546,None,2114.2141251014546,None,,,2424.726709729992,None,1,3.206526312045753,2424.726709729992,None,,,,,,,,,,,,,,,,,,,,,,,,,,,2087.9976981924847,None,2087.9976981924847,None,2087.9976981924847,None,1,8.050670843571424,2087.9976981924847,None,,,,,,,,,,,,,,,1,282.9973808452487,2117.448574378155,None,000,001,2021_May_07_1443,ATM_main_4-9-21,2021.1.3,59.90450354412526,
1,0,1,0,,,,,,,,,,,,,,,,,,,,,1,0,1,0,,,,,,,,,,,,,,,,,,,,,,,,,,,,,,,,,,,,,,,,,,,,,,,,,,,,,,,,,,,,,,,,,,,,,,,,,,,,,,,,,,,,,,,,,,,,,,,,,,,,,,,,,,,000,001,2021_May_07_1443,ATM_main_4-9-21,2021.1.3,59.90450354412526,
1,0,1,0,,,,,,,,,,,,,,,,,,,,,2,0,2,0,,,,,0,0,0,0,,,,,,,,,,,,,,,,,,,,,,,,,2453.1266108397394,None,2453.1266108397394,None,['equal'],[1.499770904891193],2453.1266108397394,None,2451.6433789972216,None,2451.6433789972216,None,,,2762.1552731152624,None,1,2.773499993607402,2762.1552731152624,None,,,,,,,,,,,"['1', '1', '1', '1', '1', '1', '1', '1', '1', '1']","[21.663094809278846, 42.0625031972304, 63.66711987182498, 88.92975587397814, 118.2667775908485, 150.1166870612651, 187.0948125179857, 216.29920703731477, 255.31382182333618, 299.71037435904145]",2454.647400676273,None,2454.647400676273,None,2427.9601591536775,None,2427.9601591536775,None,2427.9601591536775,None,1,4.801289085298777,2427.9601591536775,None,,,,,,,,,,,,,,,,,,,,,,,,,,,,,000,001,2021_May_07_1443,ATM_main_4-9-21,2021.1.3,59.90450354412526,
1,0,1,0,,,,,,,,,,,,,,,,,,,,,2,0,2,0,,,,,,,,,,,,,,,,,,,,,,,,,,,,,,,,,,,,,,,,,,,,,,,,,,,,,,,,,,,,,,,,,,,,,,,,,,,,,,,,,,,,,,,,,,,,,,,,,,,,,,,,,,,000,001,2021_May_07_1443,ATM_main_4-9-21,2021.1.3,59.90450354412526,
1,0,1,0,,,,,,,,,,,,,,,,,,,,,3,0,3,0,0,0,0,0,,,,,,,,,,,,,,,,,,,,,,,,,,,,,2798.9052075194195,None,2798.9052075194195,None,['equal'],[1.5002289060503244],2798.9052075194195,None,2797.4041938567534,None,2797.4041938567534,None,,,3107.9340898627415,None,1,12.105872808024287,3107.9340898627415,None,2764.9545748382807,None,2764.9545748382807,None,2764.9545748382807,None,1,11.191327477805316,2764.9545748382807,None,"['1', '1', '1', '1', '1', '1', '1', '1', '1', '1', '1', '1', '1']","[27.813045575283468, 59.329236794263124, 74.99318494088948, 103.14474410936236, 126.75021203886718, 154.29374714195728, 167.91039587464184, 190.39381872303784, 208.1481445543468, 225.5104913469404, 251.9435326056555, 276.3428309597075, 299.1087944880128]",2800.4269227087498,None,2800.4269227087498,None,,,,,,,,,,,,,,,,,,,,,,,,,,,,,,,,,,,,,,,000,001,2021_May_07_1443,ATM_main_4-9-21,2021.1.3,59.90450354412526,
1,0,1,0,,,,,,,,,,,,,,,,,,,,,3,0,3,0,,,,,,,,,,,,,,,,,,,,,,,,,,,,,,,,,,,,,,,,,,,,,,,,,,,,,,,,,,,,,,,,,,,,,,,,,,,,,,,,,,,,,,,,,,,,,,,,,,,,,,,,,,,000,001,2021_May_07_1443,ATM_main_4-9-21,2021.1.3,59.90450354412526,
1,0,1,0,,,,,,,,,,,,,,,,,,,,,,,,,,,,,,,,,,,,,,,,,,,,,,,,,,,,,,,,,,,,,,,,,,,,,,,,,,,,,,,,,,,,,,,,,,,,,,,,,,,,,,,,,,,,,,,,,,,,,,,,,,,,,,,,,,,000,001,2021_May_07_1443,ATM_main_4-9-21,2021.1.3,59.90450354412526,
